Data from SILD1_top-08062021_Absorbance_2.txt Node
Date: Sat Aug 07 12:32:18 CDT 2021
User: Jim McClelland
Spectrometer: FLMS12711
Trigger mode: 0
Integration Time (sec): 1.111000E-2
Scans to average: 20
Electric dark correction enabled: true
Nonlinearity correction enabled: true
Boxcar width: 0
XAxis mode: Wavelengths
Number of Pixels in Spectrum: 2048
>>>>>Begin Spectral Data<<<<<
180.743	1.151
181.114	1.151
181.484	1.151
181.854	0.815
182.224	-0.434
182.594	-1.049
182.964	0.354
183.334	-13.382
183.704	-0.5
184.074	-0
184.444	0.234
184.814	-0.269
185.184	-0.037
185.554	0.473
185.924	-0
186.294	1.25
186.664	-0.436
187.034	-0
187.403	-0.006
187.773	-0
188.143	-0.44
188.512	-0.695
188.882	0
189.252	0.533
189.621	0.595
189.991	0.623
190.36	0.659
190.73	0.7
191.099	0.693
191.469	0.736
191.838	0.762
192.208	0.794
192.577	0.798
192.946	0.832
193.316	0.828
193.685	0.871
194.054	0.869
194.424	0.875
194.793	0.902
195.162	0.909
195.531	0.926
195.9	0.939
196.269	0.928
196.638	0.991
197.007	0.974
197.376	0.969
197.745	0.988
198.114	0.978
198.483	1.016
198.852	1.045
199.221	1.024
199.59	1.022
199.959	1.036
200.327	1.054
200.696	1.04
201.065	1.038
201.434	1.081
201.802	1.076
202.171	1.059
202.539	1.072
202.908	1.069
203.277	1.095
203.645	1.131
204.014	1.098
204.382	1.138
204.751	1.113
205.119	1.126
205.487	1.142
205.856	1.128
206.224	1.114
206.592	1.117
206.961	1.112
207.329	1.116
207.697	1.079
208.065	1.075
208.433	1.059
208.801	1.036
209.17	0.999
209.538	0.963
209.906	0.915
210.274	0.883
210.642	0.848
211.01	0.795
211.378	0.74
211.745	0.696
212.113	0.65
212.481	0.606
212.849	0.559
213.217	0.526
213.584	0.475
213.952	0.433
214.32	0.405
214.687	0.373
215.055	0.341
215.423	0.312
215.79	0.287
216.158	0.259
216.525	0.238
216.893	0.216
217.26	0.197
217.628	0.181
217.995	0.168
218.363	0.153
218.73	0.139
219.097	0.129
219.464	0.117
219.832	0.107
220.199	0.101
220.566	0.094
220.933	0.088
221.3	0.081
221.668	0.076
222.035	0.074
222.402	0.068
222.769	0.064
223.136	0.059
223.503	0.055
223.87	0.053
224.237	0.05
224.603	0.049
224.97	0.048
225.337	0.045
225.704	0.044
226.071	0.043
226.437	0.04
226.804	0.04
227.171	0.04
227.537	0.042
227.904	0.036
228.271	0.035
228.637	0.035
229.004	0.035
229.37	0.032
229.737	0.031
230.103	0.032
230.47	0.031
230.836	0.03
231.202	0.033
231.569	0.029
231.935	0.031
232.301	0.03
232.667	0.029
233.034	0.03
233.4	0.028
233.766	0.029
234.132	0.031
234.498	0.03
234.864	0.028
235.23	0.028
235.596	0.028
235.962	0.028
236.328	0.028
236.694	0.028
237.06	0.027
237.426	0.029
237.792	0.026
238.157	0.027
238.523	0.027
238.889	0.027
239.255	0.028
239.62	0.025
239.986	0.028
240.351	0.025
240.717	0.025
241.083	0.026
241.448	0.024
241.814	0.026
242.179	0.026
242.545	0.025
242.91	0.025
243.275	0.023
243.641	0.023
244.006	0.023
244.371	0.022
244.737	0.024
245.102	0.024
245.467	0.024
245.832	0.023
246.197	0.022
246.562	0.022
246.927	0.023
247.293	0.023
247.658	0.023
248.023	0.021
248.388	0.022
248.752	0.023
249.117	0.023
249.482	0.023
249.847	0.022
250.212	0.021
250.577	0.023
250.941	0.022
251.306	0.022
251.671	0.022
252.035	0.022
252.4	0.02
252.765	0.021
253.129	0.021
253.494	0.021
253.858	0.022
254.223	0.021
254.587	0.021
254.952	0.021
255.316	0.023
255.68	0.023
256.045	0.021
256.409	0.02
256.773	0.021
257.138	0.019
257.502	0.021
257.866	0.02
258.23	0.018
258.594	0.019
258.958	0.021
259.322	0.021
259.686	0.019
260.05	0.019
260.414	0.018
260.778	0.02
261.142	0.02
261.506	0.019
261.87	0.02
262.234	0.018
262.598	0.019
262.961	0.018
263.325	0.018
263.689	0.017
264.052	0.019
264.416	0.019
264.78	0.019
265.143	0.019
265.507	0.019
265.87	0.017
266.234	0.019
266.597	0.019
266.961	0.019
267.324	0.018
267.687	0.018
268.051	0.017
268.414	0.018
268.777	0.016
269.141	0.018
269.504	0.017
269.867	0.014
270.23	0.018
270.593	0.018
270.956	0.017
271.319	0.016
271.682	0.017
272.045	0.017
272.408	0.016
272.771	0.016
273.134	0.015
273.497	0.014
273.86	0.016
274.223	0.015
274.585	0.016
274.948	0.014
275.311	0.015
275.674	0.016
276.036	0.016
276.399	0.015
276.762	0.014
277.124	0.015
277.487	0.015
277.849	0.014
278.212	0.013
278.574	0.014
278.936	0.013
279.299	0.013
279.661	0.012
280.024	0.014
280.386	0.013
280.748	0.015
281.11	0.013
281.472	0.016
281.835	0.013
282.197	0.012
282.559	0.014
282.921	0.013
283.283	0.013
283.645	0.012
284.007	0.013
284.369	0.013
284.731	0.012
285.093	0.013
285.455	0.011
285.816	0.011
286.178	0.011
286.54	0.011
286.902	0.011
287.263	0.012
287.625	0.012
287.987	0.012
288.348	0.01
288.71	0.012
289.071	0.009
289.433	0.011
289.794	0.012
290.156	0.011
290.517	0.01
290.879	0.011
291.24	0.011
291.601	0.012
291.963	0.01
292.324	0.011
292.685	0.01
293.046	0.01
293.408	0.011
293.769	0.01
294.13	0.01
294.491	0.011
294.852	0.01
295.213	0.009
295.574	0.01
295.935	0.01
296.296	0.01
296.657	0.009
297.018	0.009
297.378	0.009
297.739	0.008
298.1	0.01
298.461	0.009
298.821	0.01
299.182	0.009
299.543	0.01
299.903	0.007
300.264	0.01
300.624	0.01
300.985	0.01
301.345	0.008
301.706	0.01
302.066	0.008
302.427	0.009
302.787	0.009
303.147	0.007
303.508	0.009
303.868	0.007
304.228	0.008
304.588	0.009
304.948	0.007
305.309	0.007
305.669	0.006
306.029	0.007
306.389	0.008
306.749	0.01
307.109	0.007
307.469	0.009
307.829	0.01
308.189	0.007
308.548	0.008
308.908	0.007
309.268	0.007
309.628	0.007
309.987	0.007
310.347	0.007
310.707	0.007
311.066	0.007
311.426	0.008
311.786	0.007
312.145	0.007
312.505	0.007
312.864	0.007
313.224	0.006
313.583	0.008
313.942	0.007
314.302	0.007
314.661	0.007
315.02	0.004
315.379	0.007
315.739	0.006
316.098	0.006
316.457	0.007
316.816	0.005
317.175	0.004
317.534	0.007
317.893	0.005
318.252	0.006
318.611	0.006
318.97	0.005
319.329	0.006
319.688	0.005
320.047	0.006
320.405	0.006
320.764	0.004
321.123	0.005
321.482	0.005
321.84	0.003
322.199	0.005
322.558	0.006
322.916	0.006
323.275	0.005
323.633	0.003
323.992	0.005
324.35	0.005
324.709	0.005
325.067	0.005
325.425	0.001
325.784	0.004
326.142	0.004
326.5	0.004
326.858	0.003
327.216	0.005
327.575	0.005
327.933	0.004
328.291	0.003
328.649	0.004
329.007	0.005
329.365	0.004
329.723	0.003
330.081	0.003
330.439	0.003
330.797	0.004
331.154	0.002
331.512	0.003
331.87	0.004
332.228	0.003
332.585	0.005
332.943	0.003
333.301	0.005
333.658	0.003
334.016	0.004
334.373	0.001
334.731	0.002
335.088	0.004
335.446	0.003
335.803	0.004
336.161	0.004
336.518	0.004
336.875	0.004
337.232	0.006
337.59	0.003
337.947	0.007
338.304	0.006
338.661	0.002
339.018	0.002
339.375	0.003
339.732	0.004
340.09	0.004
340.446	0.004
340.803	0.003
341.16	0.004
341.517	0.004
341.874	0.002
342.231	0.005
342.588	0.004
342.944	0.003
343.301	0.002
343.658	0.002
344.014	0.003
344.371	0.004
344.728	0.002
345.084	0.003
345.441	0.004
345.797	0.002
346.154	0.005
346.51	0.001
346.867	0.001
347.223	0.003
347.579	0.002
347.936	0.004
348.292	0.003
348.648	0.003
349.004	0.001
349.36	0.003
349.716	0.003
350.073	0.003
350.429	0.002
350.785	0.003
351.141	0.002
351.497	0.003
351.853	0.002
352.208	0.002
352.564	0.001
352.92	0.003
353.276	0.001
353.632	0.003
353.987	0
354.343	0.003
354.699	0.002
355.054	0.004
355.41	0.003
355.766	0.002
356.121	-0
356.477	0.001
356.832	0.002
357.187	0.001
357.543	0.002
357.898	0.002
358.254	0.005
358.609	0.003
358.964	0.003
359.319	0.001
359.675	0.001
360.03	0.003
360.385	0.003
360.74	0.002
361.095	0.003
361.45	0.003
361.805	0.002
362.16	0.001
362.515	0.002
362.87	0.002
363.225	-0
363.58	0.002
363.934	0.003
364.289	0.002
364.644	0.001
364.999	0.003
365.353	0
365.708	0.003
366.062	0.003
366.417	0.003
366.772	0.002
367.126	0.004
367.48	0.001
367.835	0.001
368.189	0.001
368.544	0.004
368.898	0.002
369.252	0.002
369.607	0.002
369.961	-0
370.315	0.002
370.669	0.001
371.023	0
371.377	0.001
371.731	0.003
372.085	0.002
372.439	0.002
372.793	0.002
373.147	0.001
373.501	0.002
373.855	0.003
374.209	0
374.563	0.001
374.916	0.002
375.27	0
375.624	-0.001
375.977	0
376.331	0.003
376.685	0.002
377.038	0.001
377.392	0.002
377.745	0
378.099	0
378.452	0.003
378.805	0.001
379.159	0.002
379.512	0.002
379.865	0.002
380.219	-0.001
380.572	0.002
380.925	0.001
381.278	-0
381.631	0.002
381.984	0
382.337	0.003
382.69	0.002
383.043	0.002
383.396	0.001
383.749	0.002
384.102	0.003
384.455	0.003
384.808	-0.001
385.161	0.002
385.513	0.001
385.866	0.002
386.219	0.001
386.571	-0.001
386.924	0.002
387.276	-0.001
387.629	0.001
387.981	0.001
388.334	0
388.686	-0
389.039	0.004
389.391	0
389.743	0.002
390.096	0.003
390.448	0.002
390.8	0.002
391.152	0.002
391.505	0
391.857	-0
392.209	0
392.561	0.001
392.913	0.002
393.265	-0.001
393.617	0.001
393.969	-0.002
394.321	0
394.672	-0.001
395.024	0
395.376	0
395.728	0.001
396.079	0.001
396.431	0.002
396.783	0.002
397.134	0.002
397.486	0.002
397.837	0.001
398.189	0.002
398.54	-0
398.892	0.001
399.243	0
399.595	-0
399.946	0.001
400.297	0.002
400.649	0.001
401	0.001
401.351	0
401.702	-0.001
402.053	-0.001
402.404	0.001
402.755	0.001
403.106	0.002
403.457	0.004
403.808	0
404.159	0.001
404.51	0
404.861	0.003
405.212	0.001
405.562	0.002
405.913	0.002
406.264	0.001
406.615	0.002
406.965	-0.001
407.316	0.002
407.666	-0
408.017	-0.001
408.367	0.002
408.718	0.001
409.068	0.002
409.419	0.001
409.769	0.002
410.119	0.001
410.47	-0.001
410.82	0
411.17	-0.001
411.52	0
411.87	0.002
412.221	0.001
412.571	0.002
412.921	0.003
413.271	0.001
413.621	0.001
413.971	0
414.32	0.002
414.67	0.001
415.02	0.002
415.37	0.002
415.72	0.001
416.069	0.001
416.419	0.001
416.769	-0
417.118	-0.001
417.468	-0.001
417.818	-0.002
418.167	-0.002
418.517	-0.003
418.866	-0.001
419.215	0.002
419.565	0.001
419.914	0.001
420.263	0
420.613	-0
420.962	-0.002
421.311	0.001
421.66	0.005
422.009	0.002
422.358	-0
422.708	0.002
423.057	0.002
423.406	0.001
423.754	0.001
424.103	0.001
424.452	0.002
424.801	0.002
425.15	0.001
425.499	0.002
425.847	0.004
426.196	-0.001
426.545	-0.001
426.893	0.002
427.242	-0.001
427.591	-0
427.939	0.002
428.288	0.001
428.636	-0
428.984	-0.001
429.333	0.001
429.681	-0
430.029	-0.002
430.378	0.001
430.726	0
431.074	0.002
431.422	0.002
431.771	-0.001
432.119	-0.003
432.467	-0.001
432.815	-0
433.163	0
433.511	-0.001
433.859	0
434.206	-0.001
434.554	-0.001
434.902	0.001
435.25	-0
435.598	0.001
435.945	-0
436.293	0.001
436.641	0.001
436.988	0.001
437.336	0
437.683	0.001
438.031	-0
438.378	-0.001
438.726	0.003
439.073	-0
439.42	0.002
439.768	-0.001
440.115	0
440.462	0.001
440.809	0.001
441.157	-0
441.504	-0
441.851	0
442.198	0
442.545	-0
442.892	0
443.239	-0
443.586	0.001
443.933	0.002
444.28	0.002
444.626	-0.001
444.973	-0.001
445.32	-0.001
445.667	0.002
446.013	0
446.36	0.001
446.706	0.001
447.053	-0.003
447.4	0
447.746	-0.001
448.092	0.002
448.439	0
448.785	-0.002
449.132	0.003
449.478	-0.001
449.824	0.001
450.17	0.003
450.517	0.002
450.863	0.001
451.209	0.003
451.555	-0.001
451.901	0.002
452.247	-0
452.593	0.001
452.939	-0
453.285	0
453.631	0.001
453.977	-0.001
454.322	0.001
454.668	-0.001
455.014	0.001
455.359	0.001
455.705	0.001
456.051	-0.001
456.396	-0
456.742	-0
457.087	0.003
457.433	-0
457.778	0.001
458.124	0
458.469	-0.002
458.814	0.001
459.16	-0
459.505	0.001
459.85	0.001
460.195	0.001
460.54	-0.001
460.886	0
461.231	-0.001
461.576	0
461.921	0
462.266	-0.001
462.61	-0.001
462.955	0.002
463.3	-0.001
463.645	0.002
463.99	0.001
464.335	0.002
464.679	0.001
465.024	0
465.369	0.002
465.713	-0.001
466.058	0.002
466.402	-0
466.747	-0
467.091	0
467.436	0.002
467.78	0.001
468.124	0
468.469	-0.001
468.813	0.001
469.157	0.001
469.501	-0
469.845	0.002
470.189	-0.001
470.534	0.001
470.878	0.001
471.222	0.003
471.566	0.001
471.909	0.002
472.253	-0.001
472.597	0.002
472.941	0.002
473.285	-0
473.629	-0.001
473.972	0
474.316	0.001
474.66	0
475.003	-0.002
475.347	0.002
475.69	-0.001
476.034	-0.001
476.377	-0
476.721	0.001
477.064	0.001
477.407	0
477.751	0.001
478.094	0.001
478.437	-0.003
478.78	0.001
479.123	0
479.467	0
479.81	0.001
480.153	-0
480.496	0.001
480.839	0
481.182	0.001
481.524	0.002
481.867	0.001
482.21	0.002
482.553	0.002
482.896	-0
483.238	0.002
483.581	0
483.924	0.001
484.266	0.001
484.609	0.001
484.951	0.001
485.294	0
485.636	0.001
485.979	0.001
486.321	0.001
486.663	-0
487.006	0.002
487.348	0.001
487.69	0.001
488.032	0.001
488.374	0.001
488.717	0.001
489.059	0.002
489.401	-0
489.743	0
490.085	-0
490.426	0.001
490.768	0
491.11	-0.001
491.452	-0.001
491.794	0.002
492.136	0
492.477	-0
492.819	0
493.16	0.002
493.502	0.001
493.844	0.002
494.185	0.001
494.527	0.001
494.868	-0
495.209	-0.001
495.551	0
495.892	0.002
496.233	0.002
496.575	0
496.916	0.002
497.257	0.001
497.598	-0
497.939	-0.001
498.28	0.001
498.621	0.001
498.962	0.001
499.303	0.002
499.644	0.001
499.985	0.001
500.326	0.001
500.667	-0.001
501.007	0.001
501.348	0.001
501.689	0.001
502.029	0
502.37	0
502.711	-0
503.051	-0
503.392	0.002
503.732	0.001
504.072	0.001
504.413	-0.001
504.753	-0
505.093	0.001
505.434	0.001
505.774	-0
506.114	-0.001
506.454	0.002
506.794	0.001
507.134	0
507.474	0.001
507.814	0
508.154	0
508.494	0.001
508.834	0.001
509.174	0.001
509.514	0
509.854	0.001
510.193	0.002
510.533	0.001
510.873	0.001
511.212	0.001
511.552	0
511.891	0.001
512.231	-0.001
512.57	0
512.91	-0.001
513.249	0.001
513.588	0
513.928	-0
514.267	-0
514.606	-0.001
514.945	0.001
515.285	0.002
515.624	0.001
515.963	0.001
516.302	0.001
516.641	-0.001
516.98	0.001
517.319	-0
517.658	-0
517.996	-0
518.335	0.001
518.674	0.001
519.013	0.001
519.351	0
519.69	0
520.029	0.001
520.367	0
520.706	-0
521.044	0.001
521.383	0.001
521.721	0.001
522.06	0
522.398	0.001
522.736	-0
523.074	0.002
523.413	0.001
523.751	0
524.089	-0
524.427	0.001
524.765	0.001
525.103	0
525.441	0
525.779	0
526.117	0.001
526.455	0
526.793	0.001
527.131	0.001
527.468	-0
527.806	0.002
528.144	0
528.482	0.002
528.819	0
529.157	0
529.494	0.001
529.832	0.001
530.169	-0
530.507	0
530.844	-0
531.181	0.001
531.519	-0.001
531.856	-0.001
532.193	-0.001
532.53	0
532.867	0.001
533.205	-0.001
533.542	0.002
533.879	0
534.216	0
534.553	-0.001
534.89	0
535.226	0
535.563	0.001
535.9	-0.001
536.237	0.001
536.573	0
536.91	0.001
537.247	0
537.583	0
537.92	0.001
538.256	-0.001
538.593	-0.001
538.929	-0.002
539.266	-0.001
539.602	-0.001
539.938	0.001
540.275	-0
540.611	0
540.947	0
541.283	0
541.62	-0
541.956	0.001
542.292	0.001
542.628	0.001
542.964	-0
543.3	-0.001
543.635	0
543.971	-0.001
544.307	-0.001
544.643	-0
544.979	0.002
545.314	-0
545.65	-0.001
545.986	0.002
546.321	0
546.657	-0.001
546.992	0.001
547.328	-0.001
547.663	-0
547.999	-0
548.334	0.001
548.669	0.001
549.004	0
549.34	0.001
549.675	0.001
550.01	0.001
550.345	-0
550.68	0.001
551.015	0
551.35	-0
551.685	0.001
552.02	0.002
552.355	0.001
552.69	-0.001
553.025	0.001
553.359	0.001
553.694	0.001
554.029	0
554.363	-0.001
554.698	0
555.032	-0
555.367	-0
555.701	0
556.036	-0.001
556.37	0.001
556.705	0.001
557.039	-0.001
557.373	-0.001
557.707	0.002
558.042	0
558.376	0
558.71	-0
559.044	0.001
559.378	-0.001
559.712	0
560.046	0.001
560.38	0
560.714	-0
561.048	0.001
561.381	0
561.715	-0
562.049	-0.001
562.383	-0
562.716	-0.001
563.05	-0.001
563.383	0.001
563.717	-0
564.05	-0.001
564.384	0
564.717	-0
565.051	-0
565.384	0.002
565.717	-0
566.05	0.001
566.384	-0.001
566.717	0.002
567.05	-0
567.383	-0
567.716	-0
568.049	-0.001
568.382	-0.001
568.715	0.001
569.048	0.001
569.381	0
569.713	-0
570.046	-0
570.379	0
570.712	0
571.044	0
571.377	0.002
571.709	0
572.042	-0
572.374	0
572.707	0
573.039	-0.001
573.372	-0
573.704	0.001
574.036	0.001
574.368	0
574.701	-0
575.033	0.002
575.365	0.001
575.697	-0
576.029	0.001
576.361	0
576.693	-0.002
577.025	-0.001
577.357	0
577.689	0.003
578.02	-0
578.352	-0.001
578.684	-0.001
579.015	0
579.347	-0
579.679	0
580.01	0.001
580.342	-0
580.673	-0
581.005	-0.001
581.336	-0
581.667	0.001
581.999	0
582.33	-0.001
582.661	0.001
582.992	-0.002
583.324	0
583.655	-0.001
583.986	0
584.317	0.001
584.648	0
584.979	-0
585.31	-0
585.64	0.002
585.971	0.001
586.302	0.001
586.633	0.001
586.963	-0.001
587.294	0.001
587.625	0
587.955	-0
588.286	-0
588.616	0.001
588.947	-0.003
589.277	0.001
589.608	-0.001
589.938	-0
590.268	-0
590.598	0.001
590.929	0.001
591.259	0.001
591.589	-0
591.919	0.001
592.249	0
592.579	0.001
592.909	0.001
593.239	-0.001
593.569	0.001
593.899	0
594.228	0.001
594.558	0.002
594.888	-0.001
595.218	0
595.547	-0
595.877	-0.001
596.206	0.001
596.536	-0
596.865	0.001
597.195	0.001
597.524	-0
597.854	-0
598.183	-0
598.512	-0.001
598.841	0.001
599.171	-0
599.5	-0
599.829	0
600.158	0
600.487	0.001
600.816	0
601.145	0.001
601.474	0
601.803	0.001
602.131	0.001
602.46	-0.002
602.789	-0.001
603.118	0.001
603.446	0.001
603.775	0.001
604.103	-0
604.432	0
604.76	-0.001
605.089	0.002
605.417	-0
605.746	0.001
606.074	-0
606.402	0
606.73	-0
607.059	0
607.387	0.001
607.715	0.002
608.043	0.001
608.371	0.001
608.699	0
609.027	-0
609.355	0
609.683	0
610.01	0.001
610.338	-0
610.666	0.002
610.994	0
611.321	0.002
611.649	0.002
611.977	0
612.304	0.001
612.632	0.001
612.959	0
613.286	0.001
613.614	0
613.941	-0
614.268	-0.002
614.596	-0
614.923	0.001
615.25	-0.001
615.577	0.001
615.904	-0
616.231	0
616.558	-0
616.885	0
617.212	-0.001
617.539	-0
617.866	0
618.192	0.001
618.519	0.001
618.846	0.001
619.173	0.001
619.499	-0.001
619.826	0.001
620.152	0.001
620.479	0.002
620.805	0
621.132	-0.002
621.458	0
621.784	0.002
622.111	0.001
622.437	0.001
622.763	-0.001
623.089	0.002
623.415	0.001
623.741	-0.001
624.067	0.001
624.393	0.001
624.719	0.001
625.045	-0
625.371	0.001
625.697	0
626.023	0
626.348	0
626.674	0.001
627	-0.001
627.325	-0
627.651	-0
627.976	0.001
628.302	0.001
628.627	-0.001
628.953	0
629.278	0
629.603	-0
629.929	0.001
630.254	0.001
630.579	0
630.904	0
631.229	-0
631.554	0
631.879	0.001
632.204	0.002
632.529	0.002
632.854	-0
633.179	0.001
633.504	0.002
633.829	0
634.153	-0
634.478	0.001
634.803	0
635.127	0
635.452	0
635.776	0.002
636.101	0
636.425	-0.001
636.75	0.001
637.074	0
637.398	0
637.723	0
638.047	-0.001
638.371	0.001
638.695	-0.001
639.019	0
639.343	0.002
639.667	-0
639.991	-0
640.315	0.001
640.639	-0
640.963	0.001
641.287	0
641.61	0
641.934	-0.001
642.258	0.001
642.581	0
642.905	-0
643.228	-0.001
643.552	0.001
643.875	0.001
644.199	-0
644.522	0.001
644.845	0
645.169	0.002
645.492	0.002
645.815	0.002
646.138	-0
646.461	0.002
646.784	0.001
647.107	-0.002
647.43	-0
647.753	0.002
648.076	0
648.399	0
648.722	0
649.045	-0
649.367	0.001
649.69	0.001
650.013	0.001
650.335	-0
650.658	0
650.98	0.002
651.303	-0
651.625	-0
651.948	0
652.27	-0.001
652.592	0.002
652.914	0.001
653.237	-0
653.559	0.002
653.881	-0
654.203	0
654.525	0.001
654.847	0
655.169	-0
655.491	-0
655.813	0
656.135	0
656.456	-0.001
656.778	0
657.1	-0.001
657.421	0.001
657.743	0.001
658.065	-0.001
658.386	-0.001
658.708	0
659.029	0.001
659.35	-0
659.672	0
659.993	0
660.314	-0
660.635	0.001
660.957	-0.001
661.278	0
661.599	0.001
661.92	0.001
662.241	0.001
662.562	-0
662.883	-0
663.204	0
663.524	-0.001
663.845	0.001
664.166	0
664.487	0.001
664.807	0.001
665.128	-0
665.449	-0
665.769	0.001
666.09	0.001
666.41	-0.001
666.73	0
667.051	-0
667.371	0
667.691	-0.001
668.011	-0.001
668.332	-0.002
668.652	0.002
668.972	0
669.292	0.001
669.612	-0.001
669.932	0.001
670.252	-0
670.572	-0
670.891	-0
671.211	0
671.531	0
671.851	0.002
672.17	-0.001
672.49	-0.001
672.81	-0.001
673.129	0
673.449	0
673.768	0.001
674.087	0
674.407	-0
674.726	0.001
675.045	0
675.364	0
675.684	-0.001
676.003	0
676.322	-0.001
676.641	-0.002
676.96	-0.001
677.279	0.001
677.598	-0.001
677.917	0.001
678.235	0
678.554	0.001
678.873	-0
679.192	-0.001
679.51	-0.002
679.829	0
680.147	-0
680.466	-0.001
680.784	0
681.103	-0
681.421	-0.001
681.74	0
682.058	0.001
682.376	-0.001
682.694	-0.002
683.012	-0.001
683.331	-0
683.649	0.001
683.967	0.001
684.285	0.001
684.603	-0
684.92	0
685.238	-0.001
685.556	0
685.874	0.001
686.192	0
686.509	0.001
686.827	0.001
687.145	0
687.462	-0.001
687.78	0.001
688.097	0
688.414	0.001
688.732	0
689.049	-0
689.366	-0
689.684	0.002
690.001	0.001
690.318	0.001
690.635	0
690.952	-0.001
691.269	0.001
691.586	-0
691.903	-0
692.22	0
692.537	0.001
692.854	-0
693.17	0
693.487	0.001
693.804	0.001
694.12	0.001
694.437	-0
694.753	-0.002
695.07	0
695.386	0
695.703	0.001
696.019	-0.001
696.335	0.001
696.652	-0
696.968	-0
697.284	-0.001
697.6	0
697.916	0
698.232	0.001
698.548	0.001
698.864	0.001
699.18	-0
699.496	0
699.812	0.001
700.128	-0.001
700.443	0
700.759	0.001
701.075	0
701.39	-0
701.706	0.001
702.021	-0.001
702.337	0
702.652	0
702.967	0
703.283	0.001
703.598	-0.002
703.913	0.001
704.228	0.001
704.544	-0
704.859	0.002
705.174	-0
705.489	0.001
705.804	-0
706.119	0
706.434	0.001
706.748	0.001
707.063	-0.001
707.378	0
707.693	-0.001
708.007	-0.003
708.322	-0.001
708.636	0.001
708.951	-0
709.265	0
709.58	0.001
709.894	0
710.209	0.001
710.523	-0
710.837	-0
711.151	-0.001
711.465	-0.001
711.78	-0.002
712.094	-0
712.408	-0.001
712.722	-0.001
713.036	-0.003
713.349	-0.001
713.663	-0.001
713.977	-0.002
714.291	-0.001
714.605	0.002
714.918	-0.001
715.232	0.001
715.545	-0.002
715.859	-0
716.172	0
716.486	-0
716.799	0.001
717.113	0
717.426	-0.001
717.739	-0
718.052	-0.001
718.365	0
718.679	0
718.992	0.001
719.305	-0.001
719.618	-0
719.931	-0.001
720.243	-0
720.556	-0
720.869	-0.001
721.182	0.001
721.495	-0.001
721.807	-0.001
722.12	-0.001
722.432	0.001
722.745	-0
723.057	-0
723.37	0
723.682	-0.002
723.995	-0.001
724.307	-0.002
724.619	0.001
724.931	-0
725.244	-0.001
725.556	-0.001
725.868	-0
726.18	0
726.492	-0.001
726.804	-0.001
727.116	-0
727.427	-0.001
727.739	-0
728.051	-0
728.363	-0.001
728.674	-0.001
728.986	-0.001
729.298	-0
729.609	0
729.921	-0.002
730.232	-0.001
730.543	-0.001
730.855	-0.001
731.166	-0
731.477	-0.001
731.789	-0.001
732.1	-0.001
732.411	-0
732.722	-0.001
733.033	-0.001
733.344	-0
733.655	-0.001
733.966	0
734.277	0
734.587	-0
734.898	-0.002
735.209	0
735.519	-0.001
735.83	-0.001
736.141	0.002
736.451	-0.001
736.762	-0
737.072	-0
737.382	-0
737.693	-0
738.003	0
738.313	-0
738.623	-0.001
738.934	-0
739.244	0
739.554	-0
739.864	-0.002
740.174	0.001
740.484	0
740.794	0.001
741.103	-0
741.413	0.001
741.723	0.001
742.033	-0.001
742.342	0
742.652	-0.001
742.961	-0.001
743.271	-0.002
743.58	-0.001
743.89	-0
744.199	0.001
744.509	0
744.818	0.001
745.127	-0
745.436	0.001
745.745	-0.002
746.054	-0
746.363	-0.001
746.672	-0.001
746.981	0
747.29	-0.002
747.599	-0.002
747.908	0.001
748.217	-0
748.526	0.001
748.834	-0
749.143	-0.001
749.451	-0.001
749.76	-0
750.068	-0.001
750.377	0.001
750.685	-0.001
750.994	-0.001
751.302	0
751.61	0
751.918	-0.001
752.227	-0.001
752.535	-0.001
752.843	0.001
753.151	-0
753.459	-0
753.767	0.001
754.075	-0.001
754.382	0
754.69	-0
754.998	-0.001
755.306	0.001
755.613	-0.002
755.921	-0.001
756.228	-0.002
756.536	-0.001
756.843	-0.001
757.151	-0.002
757.458	-0.001
757.766	-0.001
758.073	-0.001
758.38	-0.001
758.687	-0
758.994	0.001
759.301	-0
759.609	-0.001
759.916	-0.002
760.222	-0.001
760.529	0.001
760.836	0.001
761.143	-0.002
761.45	-0
761.757	-0
762.063	0
762.37	0.001
762.676	-0.002
762.983	-0.001
763.289	0.001
763.596	-0.001
763.902	-0.002
764.209	0
764.515	-0.002
764.821	-0.002
765.127	-0
765.434	-0.001
765.74	0.001
766.046	-0
766.352	0
766.658	0
766.964	-0
767.269	0
767.575	0
767.881	-0.001
768.187	-0.001
768.492	-0.001
768.798	0
769.104	0
769.409	-0.001
769.715	0
770.02	0
770.326	-0
770.631	0.001
770.936	-0.001
771.242	-0.001
771.547	0
771.852	0
772.157	-0.001
772.462	-0.001
772.767	-0.001
773.072	-0.001
773.377	-0.001
773.682	0.001
773.987	0
774.292	-0.001
774.596	-0.002
774.901	-0.002
775.206	0
775.51	-0.001
775.815	0.001
776.119	-0
776.424	-0
776.728	-0.003
777.033	-0.001
777.337	-0.001
777.641	-0.002
777.945	-0.001
778.25	-0.001
778.554	-0
778.858	-0.001
779.162	0.001
779.466	-0.001
779.77	-0.002
780.074	0
780.377	-0.001
780.681	0.001
780.985	-0.002
781.289	-0.002
781.592	-0.001
781.896	-0.001
782.2	0
782.503	-0
782.806	-0.001
783.11	-0.001
783.413	-0.001
783.717	-0.001
784.02	-0.001
784.323	-0.002
784.626	-0
784.929	-0.001
785.232	-0.002
785.535	-0
785.838	0.001
786.141	0.002
786.444	-0.001
786.747	-0
787.05	-0.002
787.353	0
787.655	0
787.958	-0.003
788.261	-0.001
788.563	0
788.866	-0
789.168	-0
789.471	-0.001
789.773	0.001
790.075	-0.002
790.378	-0.001
790.68	-0
790.982	-0.002
791.284	0.001
791.586	-0.001
791.888	-0.001
792.19	0
792.492	-0.002
792.794	-0.001
793.096	0.002
793.398	-0.002
793.699	-0.001
794.001	0
794.303	-0.002
794.604	-0.002
794.906	-0.001
795.207	0.001
795.509	-0.002
795.81	-0.004
796.112	-0
796.413	-0.001
796.714	0
797.015	-0.002
797.316	-0
797.618	-0
797.919	-0
798.22	-0.003
798.521	0.001
798.822	-0.001
799.122	-0
799.423	-0.002
799.724	-0.004
800.025	-0.001
800.326	-0.002
800.626	0.002
800.927	-0
801.227	0
801.528	-0
801.828	-0.002
802.129	-0.002
802.429	-0.003
802.729	0.001
803.029	-0.003
803.33	0
803.63	-0.002
803.93	-0
804.23	-0
804.53	-0.001
804.83	-0.002
805.13	-0.002
805.43	-0
805.73	-0
806.029	0.001
806.329	-0
806.629	-0
806.928	-0
807.228	0
807.527	-0.002
807.827	-0.004
808.126	0.001
808.426	0
808.725	-0.002
809.024	-0.002
809.324	-0
809.623	-0.001
809.922	-0
810.221	-0.001
810.52	-0.001
810.819	0
811.118	0
811.417	-0.001
811.716	-0.001
812.014	-0.003
812.313	0.001
812.612	0.002
812.911	-0.002
813.209	0.002
813.508	-0.001
813.806	0
814.105	0.001
814.403	-0.004
814.701	-0.005
815	-0.002
815.298	-0.003
815.596	0.004
815.894	-0.003
816.192	-0.003
816.491	-0.002
816.789	-0.003
817.086	-0.002
817.384	-0
817.682	-0.001
817.98	0.001
818.278	-0.003
818.576	-0.002
818.873	0.004
819.171	-0.001
819.468	-0.001
819.766	-0.002
820.063	-0.001
820.361	0.001
820.658	0.002
820.956	-0
821.253	-0
821.55	0
821.847	0.001
822.144	-0
822.441	0.002
822.739	-0.001
823.036	-0.001
823.332	-0.003
823.629	-0.003
823.926	0
824.223	0.004
824.52	-0.007
824.816	0.001
825.113	-0.002
825.41	-0.003
825.706	-0.005
826.003	-0.003
826.299	-0.003
826.596	-0.005
826.892	0.002
827.188	0.002
827.484	0.003
827.781	-0.002
828.077	-0.003
828.373	0.003
828.669	-0.002
828.965	0.001
829.261	-0.002
829.557	-0.004
829.853	0.001
830.148	-0.004
830.444	-0.001
830.74	-0.004
831.036	-0.002
831.331	0
831.627	-0.003
831.922	0.001
832.218	0.002
832.513	-0.004
832.808	-0.004
833.104	0
833.399	0.001
833.694	-0.001
833.989	0
834.285	-0.006
834.58	0.004
834.875	-0.001
835.17	-0
835.464	-0.004
835.759	-0.002
836.054	0.004
836.349	-0.002
836.644	-0.002
836.938	0.006
837.233	-0.004
837.527	-0.007
837.822	-0.007
838.116	-0.002
838.411	-0.003
838.705	0.002
839	0.004
839.294	-0.001
839.588	-0.002
839.882	-0.002
840.176	0.001
840.47	-0.003
840.764	-0.002
841.058	0.003
841.352	-0.004
841.646	0.001
841.94	0.001
842.234	-0.003
842.528	-0.002
842.821	-0
843.115	0.003
843.408	0
843.702	0.002
843.995	-0
844.289	-0.003
844.582	-0.003
844.876	0.004
845.169	-0.001
845.462	-0.001
845.755	-0.003
846.048	-0.001
846.341	-0.002
846.634	-0.002
846.927	-0.003
847.22	-0.002
847.513	-0.011
847.806	-0.006
848.099	-0.001
848.392	0
848.684	-0.002
848.977	-0.001
849.269	-0.005
849.562	-0.001
849.854	0.001
850.147	-0.006
850.439	-0.002
850.732	0.001
851.024	0.004
851.316	-0.002
851.608	-0
851.9	-0.007
852.192	-0.015
852.484	-0.003
852.776	0.004
853.068	-0.003
853.36	-0.005
853.652	-0.004
853.944	0.002
854.235	0.003
854.527	-0.006
854.819	0.012
855.11	0.005
855.402	-0.001
855.693	0.001
855.985	-0.004
856.276	0.001
856.567	-0.013
856.859	0
857.15	0.002
857.441	-0.002
857.732	0.006
858.023	0.007
858.314	-0.007
858.605	0.002
858.896	-0.007
859.187	0.005
859.478	0.01
859.769	0.008
860.059	0.001
860.35	-0.008
860.641	0.004
860.931	-0.003
861.222	-0.008
861.512	0.006
861.803	-0.006
862.093	0.008
862.383	-0.001
862.673	-0.001
862.964	0.003
863.254	-0.002
863.544	-0.002
863.834	-0.005
864.124	-0.005
864.414	-0.005
